File: Lab9/xLab9_W3_1.csv
Time sec,Extension in,Strain 1 %,Load lbf,Tensile stress ksi,Cycle Count ,Total Cycle Count ,Repetitions Count ,Segment ID ,Marked Data ,PIP Count ,Tensile extension in,Tensile strain %,Displacement (Strain 1) in,True strain %,Corrected Position in,Tenacity gf/tex,True stress psi
0,0,0.001109508,111.5654,63.75168,0,0,0,5,0,0,1.11E-05,0.001109508,1.11E-05,0.001109502,0,506.0524,63752.39
0.754,0.000126547,0.001348053,117.3188,67.03932,0,0,0,3204,0,0,1.35E-05,0.001348053,1.35E-05,0.001348044,0.000126547,532.1492,67040.23
1.604,0.000265748,0.001899769,125.0756,71.47176,0,0,0,3204,0,0,1.90E-05,0.001899769,1.90E-05,0.001899751,0.000265748,567.3333,71473.11
2.454,0.000407058,0.00241798,132.9869,75.99254,0,0,0,3204,0,0,2.42E-05,0.00241798,2.42E-05,0.002417951,0.000407058,603.2187,75994.38
3.304,0.000550478,0.002692262,141.023,80.58459,0,0,0,3204,0,0,2.69E-05,0.002692262,2.69E-05,0.002692226,0.000550478,639.6698,80586.77
4.154,0.000693897,0.003169508,148.8693,85.06815,0,0,0,3204,0,0,3.17E-05,0.003169508,3.17E-05,0.003169458,0.000693897,675.2596,85070.84
5.004,0.000830989,0.003678868,156.5299,89.44568,0,0,0,3204,0,0,3.68E-05,0.003678868,3.68E-05,0.003678801,0.000830989,710.0079,89448.97
5.854,0.000978627,0.004098564,164.6985,94.11345,0,0,0,3204,0,0,4.10E-05,0.004098564,4.10E-05,0.00409848,0.000978627,747.0601,94117.31
6.704,0.001117828,0.004565725,172.5471,98.59836,0,0,0,3204,0,0,4.57E-05,0.004565726,4.57E-05,0.004565621,0.001117828,782.6606,98602.86
7.554,0.00125703,0.004936251,180.0678,102.8959,0,0,0,3204,0,0,4.94E-05,0.004936251,4.94E-05,0.004936129,0.00125703,816.7737,102900.9
8.404,0.001402558,0.00535908,187.995,107.4257,0,0,0,3204,0,0,5.36E-05,0.00535908,5.36E-05,0.005358936,0.001402558,852.7313,107431.5
9.254001,0.001541759,0.005759057,195.6595,111.8054,0,0,0,3204,0,0,5.76E-05,0.005759057,5.76E-05,0.005758891,0.001541759,887.4967,111811.9
10.104,0.001685179,0.006185508,203.2527,116.1444,0,0,0,3204,0,0,6.19E-05,0.006185507,6.19E-05,0.006185316,0.001685179,921.9388,116151.6
10.954,0.00182438,0.006535473,210.7739,120.4423,0,0,0,3204,0,0,6.54E-05,0.006535473,6.54E-05,0.00653526,0.00182438,956.0546,120450.1
11.804,0.001965691,0.007013169,218.1947,124.6827,0,0,0,3204,0,0,7.01E-05,0.007013169,7.01E-05,0.007012923,0.001965691,989.7148,124691.5
12.654,0.00210911,0.00741669,225.9452,129.1115,0,0,0,3204,0,0,7.42E-05,0.00741669,7.42E-05,0.007416415,0.00210911,1024.87,129121.1
13.504,0.002246202,0.007854754,233.1792,133.2453,0,0,0,3204,0,0,7.85E-05,0.007854754,7.85E-05,0.007854446,0.002246202,1057.683,133255.7
14.354,0.002391731,0.008285278,240.7556,137.5746,0,0,0,3204,0,0,8.29E-05,0.008285278,8.29E-05,0.008284934,0.002391731,1092.049,137586
15.204,0.002533041,0.008643291,248.3029,141.8874,0,0,0,3204,0,0,8.64E-05,0.008643291,8.64E-05,0.008642917,0.002533041,1126.283,141899.7
16.054,0.002674352,0.009032498,255.5727,146.0415,0,0,0,3204,0,0,9.03E-05,0.009032498,9.03E-05,0.00903209,0.002674352,1159.258,146054.7
16.904,0.002815662,0.009394779,263.0787,150.3307,0,0,0,3204,0,0,9.39E-05,0.00939478,9.39E-05,0.009394338,0.002815662,1193.305,150344.8
17.754,0.002956972,0.009746801,270.481,154.5606,0,0,0,3204,0,0,9.75E-05,0.009746801,9.75E-05,0.009746326,0.002956972,1226.881,154575.6
18.604,0.003100392,0.0101665,277.8826,158.7901,0,0,0,3204,0,0,0.000101665,0.0101665,0.000101665,0.01016598,0.003100392,1260.454,158806.2
19.454,0.003239593,0.0107218,285.0116,162.8638,0,0,0,3204,0,0,0.000107218,0.0107218,0.000107218,0.01072122,0.003239593,1292.791,162881.2
20.304,0.003387231,0.01104906,292.6364,167.2208,0,0,0,3204,0,0,0.000110491,0.01104906,0.000110491,0.01104845,0.003387231,1327.377,167239.3
21.154,0.003526432,0.01139249,299.8326,171.3329,0,0,0,3204,0,0,0.000113925,0.01139249,0.000113925,0.01139184,0.003526432,1360.018,171352.4
22.004,0.003665633,0.01189588,306.7628,175.293,0,0,0,3204,0,0,0.000118959,0.01189588,0.000118959,0.01189517,0.003665633,1391.453,175313.9
22.854,0.003811162,0.01224449,314.2426,179.5672,0,0,0,3204,0,0,0.000122445,0.01224449,0.000122445,0.01224374,0.003811162,1425.381,179589.2
23.704,0.003950363,0.01256906,321.3293,183.6168,0,0,0,3204,0,0,0.000125691,0.01256906,0.000125691,0.01256827,0.003950363,1457.525,183639.8
24.554,0.004091673,0.01304846,328.4909,187.7091,0,0,0,3204,0,0,0.000130485,0.01304846,0.000130485,0.01304761,0.004091673,1490.01,187733.6
25.404,0.004232984,0.01334624,335.5381,191.7361,0,0,0,3204,0,0,0.000133462,0.01334624,0.000133462,0.01334535,0.004232984,1521.976,191761.7
26.254,0.004372185,0.01374508,342.6315,195.7894,0,0,0,3204,0,0,0.000137451,0.01374508,0.000137451,0.01374413,0.004372185,1554.151,195816.4
27.104,0.004519823,0.0141908,349.8232,199.899,0,0,0,3204,0,0,0.000141908,0.0141908,0.000141908,0.01418979,0.004519823,1586.772,199927.4
27.954,0.004654806,0.01453001,356.6378,203.793,0,0,0,3204,0,0,0.0001453,0.01453001,0.0001453,0.01452896,0.004654806,1617.682,203822.6
28.804,0.004798225,0.01480428,363.8191,207.8966,0,0,0,3204,0,0,0.000148043,0.01480428,0.000148043,0.01480318,0.004798225,1650.256,207927.4
29.654,0.004941645,0.01531747,370.8866,211.9352,0,0,0,3204,0,0,0.000153175,0.01531747,0.000153175,0.0153163,0.004941645,1682.313,211967.7
30.504,0.005080846,0.01572268,377.6416,215.7952,0,0,0,3204,0,0,0.000157227,0.01572268,0.000157227,0.01572144,0.005080846,1712.954,215829.1
31.354,0.005224265,0.01607119,384.7672,219.867,0,0,0,3204,0,0,0.000160712,0.01607119,0.000160712,0.0160699,0.005224265,1745.275,219902.3
32.204,0.005365576,0.01641934,391.5443,223.7396,0,0,0,3204,0,0,0.000164193,0.01641934,0.000164193,0.01641799,0.005365576,1776.015,223776.4
33.054,0.005508995,0.01675009,398.447,227.684,0,0,0,3204,0,0,0.000167501,0.01675009,0.000167501,0.01674869,0.005508995,1807.325,227722.1
33.904,0.005648197,0.01715826,405.177,231.5297,0,0,0,3204,0,0,0.000171583,0.01715826,0.000171583,0.01715678,0.005648197,1837.852,231569.4
34.754,0.005793725,0.01757991,412.2843,235.591,0,0,0,3204,0,0,0.000175799,0.01757991,0.000175799,0.01757836,0.005793725,1870.09,235632.5
35.604,0.005935036,0.01780379,418.9775,239.4157,0,0,0,3204,0,0,0.000178038,0.01780379,0.000178038,0.0178022,0.005935036,1900.45,239458.3
36.454,0.006074237,0.0182627,425.5541,243.1738,0,0,0,3204,0,0,0.000182627,0.0182627,0.000182627,0.01826104,0.006074237,1930.281,243218.2
37.304,0.006219765,0.0186685,432.6769,247.244,0,0,0,3204,0,0,0.000186685,0.0186685,0.000186685,0.01866676,0.006219765,1962.59,247290.1
38.154,0.006358967,0.01890816,439.3437,251.0536,0,0,0,3204,0,0,0.000189082,0.01890816,0.000189082,0.01890637,0.006358967,1992.83,251101
39.004,0.006500277,0.01933013,446.0992,254.9138,0,0,0,3204,0,0,0.000193301,0.01933013,0.000193301,0.01932826,0.006500277,2023.472,254963.1
39.854,0.006641587,0.01975724,452.8218,258.7553,0,0,0,3204,0,0,0.000197572,0.01975724,0.000197572,0.01975529,0.006641587,2053.965,258806.4
40.704,0.006782898,0.02010353,459.5494,262.5997,0,0,0,3204,0,0,0.000201035,0.02010353,0.000201035,0.02010151,0.006782898,2084.481,262652.5
41.554,0.006928426,0.02057161,466.4181,266.5246,0,0,0,3204,0,0,0.000205716,0.02057161,0.000205716,0.02056949,0.006928426,2115.637,266579.4
42.404,0.007063409,0.02092351,472.6668,270.0953,0,0,0,3204,0,0,0.000209235,0.02092351,0.000209235,0.02092132,0.007063409,2143.981,270151.8
43.254,0.007206829,0.02119568,479.3711,273.9264,0,0,0,3204,0,0,0.000211957,0.02119568,0.000211957,0.02119343,0.007206829,2174.391,273984.4
44.104,0.007350248,0.02170065,486.1248,277.7856,0,0,0,3204,0,0,0.000217007,0.02170065,0.000217007,0.0216983,0.007350248,2205.025,277845.9
44.954,0.00748945,0.02199583,492.4258,281.3862,0,0,0,3204,0,0,0.000219958,0.02199583,0.000219958,0.02199341,0.00748945,2233.606,281448.1
45.804,0.007632869,0.02223369,499.2147,285.2655,0,0,0,3204,0,0,0.000222337,0.02223369,0.000222337,0.02223122,0.007632869,2264.4,285329
46.654,0.00777418,0.02267573,505.6363,288.935,0,0,0,3204,0,0,0.000226757,0.02267573,0.000226757,0.02267316,0.00777418,2293.528,289000.5
47.504,0.00791549,0.02293524,512.3331,292.7617,0,0,0,3204,0,0,0.000229352,0.02293524,0.000229352,0.02293261,0.00791549,2323.904,292828.9
48.354,0.0080568,0.0232678,518.7671,296.4384,0,0,0,3204,0,0,0.000232678,0.0232678,0.000232678,0.02326509,0.0080568,2353.088,296507.3
49.204,0.008202329,0.02367252,525.5259,300.3005,0,0,0,3204,0,0,0.000236725,0.02367252,0.000236725,0.02366971,0.008202329,2383.746,300371.6
50.054,0.008343639,0.02414477,532.0825,304.0471,0,0,0,3204,0,0,0.000241448,0.02414477,0.000241448,0.02414185,0.008343639,2413.486,304120.6
50.904,0.008480732,0.02445208,538.3419,307.624,0,0,0,3204,0,0,0.000244521,0.02445208,0.000244521,0.0244491,0.008480732,2441.878,307699.2
51.754,0.00862626,0.02490597,545.0824,311.4756,0,0,0,3204,0,0,0.00024906,0.02490597,0.00024906,0.02490287,0.00862626,2472.452,311553.2
52.604,0.00876757,0.02516466,551.4343,315.1053,0,0,0,3204,0,0,0.000251647,0.02516466,0.000251647,0.0251615,0.00876757,2501.264,315184.6
53.454,0.008908881,0.02556505,557.7513,318.7151,0,0,0,3204,0,0,0.000255651,0.02556505,0.000255651,0.02556179,0.008908881,2529.918,318796.5
54.304,0.009050191,0.02593411,564.1463,322.3693,0,0,0,3204,0,0,0.000259341,0.02593411,0.000259341,0.02593075,0.009050191,2558.925,322452.9
55.154,0.009189393,0.02631685,570.3296,325.9026,0,0,0,3204,0,0,0.000263169,0.02631685,0.000263169,0.02631339,0.009189393,2586.972,325988.4
56.004,0.009334921,0.02659756,576.9122,329.6641,0,0,0,3204,0,0,0.000265976,0.02659756,0.000265976,0.02659402,0.009334921,2616.83,329751.8
56.854,0.009472013,0.02696125,582.8749,333.0714,0,0,0,3204,0,0,0.000269613,0.02696125,0.000269613,0.02695761,0.009472013,2643.876,333161.2
57.704,0.009615432,0.02729316,589.2039,336.688,0,0,0,3204,0,0,0.000272932,0.02729316,0.000272932,0.02728944,0.009615432,2672.584,336779.8
58.554,0.009758852,0.02764906,595.7262,340.415,0,0,0,3204,0,0,0.000276491,0.02764906,0.000276491,0.02764524,0.009758852,2702.169,340509.1
59.404,0.009898054,0.0279381,601.6766,343.8152,0,0,0,3204,0,0,0.000279381,0.0279381,0.000279381,0.0279342,0.009898054,2729.16,343911.3
60.254,0.01004147,0.0283521,608.0579,347.4616,0,0,0,3204,0,0,0.000283521,0.0283521,0.000283521,0.02834808,0.01004147,2758.104,347560.2
61.104,0.01018278,0.02852499,614.2198,350.9828,0,0,0,3204,0,0,0.00028525,0.02852499,0.00028525,0.02852092,0.01018278,2786.054,351082.9
61.954,0.01032409,0.02892823,620.4793,354.5596,0,0,0,3204,0,0,0.000289282,0.02892824,0.000289282,0.02892405,0.01032409,2814.447,354662.1
62.804,0.0104654,0.02925143,626.5805,358.046,0,0,0,3204,0,0,0.000292514,0.02925143,0.000292514,0.02924716,0.0104654,2842.121,358150.7
63.654,0.01061093,0.02969488,632.7656,361.5803,0,0,0,3204,0,0,0.000296949,0.02969488,0.000296949,0.02969047,0.01061093,2870.177,361687.7
64.504,0.01075224,0.02996201,638.8526,365.0586,0,0,0,3204,0,0,0.00029962,0.02996201,0.00029962,0.02995753,0.01075224,2897.787,365168
65.354,0.01088933,0.0302754,644.6313,368.3607,0,0,0,3204,0,0,0.000302754,0.0302754,0.000302754,0.03027082,0.01088933,2923.999,368472.2
66.204,0.01103486,0.03075862,650.9743,371.9853,0,0,0,3204,0,0,0.000307586,0.03075862,0.000307586,0.03075389,0.01103486,2952.77,372099.7
67.054,0.01117617,0.03088986,656.9039,375.3737,0,0,0,3204,0,0,0.000308899,0.03088986,0.000308899,0.03088509,0.01117617,2979.666,375489.6
67.90401,0.01131748,0.03131327,662.8617,378.7781,0,0,0,3204,0,0,0.000313133,0.03131327,0.000313133,0.03130837,0.01131748,3006.69,378896.7
68.75401,0.01145879,0.03163473,669.0258,382.3005,0,0,0,3204,0,0,0.000316347,0.03163473,0.000316347,0.03162972,0.01145879,3034.65,382421.4
69.604,0.011598,0.03188864,674.9173,385.667,0,0,0,3204,0,0,0.000318887,0.03188865,0.000318886,0.03188356,0.011598,3061.374,385790
70.454,0.01174352,0.03241907,681.0603,389.1773,0,0,0,3204,0,0,0.000324191,0.03241907,0.000324191,0.03241382,0.01174352,3089.238,389303.5
71.304,0.01188062,0.03257281,686.8026,392.4586,0,0,0,3204,0,0,0.000325728,0.03257281,0.000325728,0.03256751,0.01188062,3115.284,392586.5
72.15401,0.01202404,0.03292714,692.9206,395.9546,0,0,0,3204,0,0,0.000329271,0.03292714,0.000329271,0.03292172,0.01202404,3143.035,396085
73.00401,0.01216746,0.03329698,699.0271,399.4441,0,0,0,3204,0,0,0.00033297,0.03329698,0.00033297,0.03329144,0.01216746,3170.734,399577.1
73.854,0.01230666,0.03360573,704.6608,402.6633,0,0,0,3204,0,0,0.000336057,0.03360573,0.000336057,0.03360008,0.01230666,3196.288,402798.6
74.704,0.01245008,0.03384737,710.8006,406.1718,0,0,0,3204,0,0,0.000338474,0.03384737,0.000338474,0.03384164,0.01245008,3224.137,406309.2
75.554,0.01259139,0.03421403,716.6679,409.5245,0,0,0,3204,0,0,0.00034214,0.03421403,0.00034214,0.03420818,0.01259139,3250.751,409664.6
76.40401,0.0127327,0.03449292,722.6368,412.9353,0,0,0,3204,0,0,0.000344929,0.03449292,0.000344929,0.03448697,0.0127327,3277.825,413077.7
77.25401,0.01287401,0.03489875,728.5483,416.3133,0,0,0,3204,0,0,0.000348988,0.03489875,0.000348988,0.03489266,0.01287401,3304.64,416458.6
78.104,0.01301743,0.03523066,734.4539,419.6879,0,0,0,3204,0,0,0.000352307,0.03523066,0.000352307,0.03522445,0.01301743,3331.427,419835.8
78.954,0.01316085,0.03556421,740.4734,423.1277,0,0,0,3204,0,0,0.000355642,0.03556421,0.000355642,0.03555789,0.01316085,3358.731,423278.2
79.804,0.01329794,0.0358271,746.1719,426.384,0,0,0,3204,0,0,0.000358271,0.0358271,0.000358271,0.03582068,0.01329794,3384.579,426536.7
80.65401,0.01344347,0.03628324,752.3102,429.8915,0,0,0,3204,0,0,0.000362832,0.03628324,0.000362832,0.03627666,0.01344347,3412.422,430047.5
81.50401,0.01358478,0.03656647,758.1377,433.2216,0,0,0,3204,0,0,0.000365665,0.03656647,0.000365665,0.03655978,0.01358478,3438.855,433380
82.354,0.01372398,0.03683237,763.8956,436.5117,0,0,0,3204,0,0,0.000368324,0.03683237,0.000368324,0.03682559,0.01372398,3464.972,436672.5
83.204,0.0138674,0.0372585,769.8355,439.906,0,0,0,3204,0,0,0.000372585,0.03725851,0.000372585,0.03725157,0.0138674,3491.915,440069.9
84.054,0.0140066,0.03750853,775.5305,443.1603,0,0,0,3204,0,0,0.000375085,0.03750852,0.000375085,0.03750149,0.0140066,3517.748,443326.5
84.90401,0.01415213,0.03786235,781.4487,446.5421,0,0,0,3204,0,0,0.000378624,0.03786235,0.000378624,0.03785518,0.01415213,3544.592,446711.2
85.75401,0.01428922,0.03811317,786.9805,449.7032,0,0,0,3204,0,0,0.000381132,0.03811317,0.000381132,0.03810591,0.01428922,3569.684,449874.6
86.604,0.01443264,0.03846511,792.8039,453.0308,0,0,0,3204,0,0,0.000384651,0.03846511,0.000384651,0.03845772,0.01443264,3596.098,453205.1
87.454,0.01457606,0.0388095,798.6893,456.3939,0,0,0,3204,0,0,0.000388095,0.0388095,0.000388095,0.03880197,0.01457606,3622.794,456571
88.304,0.01471315,0.03909588,804.09,459.48,0,0,0,3204,0,0,0.000390959,0.03909588,0.000390959,0.03908824,0.01471315,3647.291,459659.6
89.15401,0.01485868,0.0395538,810.0899,462.9085,0,0,0,3204,0,0,0.000395538,0.0395538,0.000395538,0.03954597,0.01485868,3674.506,463091.6
90.00401,0.01499999,0.03977865,815.8617,466.2067,0,0,0,3204,0,0,0.000397787,0.03977865,0.000397787,0.03977074,0.01499999,3700.687,466392.2
90.854,0.0151413,0.04011276,821.5387,469.4507,0,0,0,3204,0,0,0.000401128,0.04011276,0.000401128,0.04010472,0.0151413,3726.437,469639
91.704,0.01528261,0.04033413,827.2715,472.7266,0,0,0,3204,0,0,0.000403341,0.04033413,0.000403341,0.040326,0.01528261,3752.441,472917.3
92.554,0.01542603,0.04070246,833.0341,476.0195,0,0,0,3204,0,0,0.000407025,0.04070246,0.000407025,0.04069418,0.01542603,3778.579,476213.2
93.40401,0.01556945,0.04095863,838.7902,479.3087,0,0,0,3204,0,0,0.000409586,0.04095863,0.000409586,0.04095025,0.01556945,3804.689,479505
94.25401,0.01570654,0.04132614,844.1936,482.3963,0,0,0,3204,0,0,0.000413261,0.04132614,0.000413261,0.0413176,0.01570654,3829.198,482595.7
95.104,0.01585207,0.04171171,850.0866,485.7638,0,0,0,3204,0,0,0.000417117,0.04171171,0.000417117,0.04170301,0.01585207,3855.928,485966.4
95.954,0.01599338,0.04209263,855.5956,488.9118,0,0,0,3204,0,0,0.000420926,0.04209263,0.000420926,0.04208377,0.01599338,3880.917,489117.6
96.804,0.01613258,0.0421791,861.0258,492.0147,0,0,0,3204,0,0,0.000421791,0.0421791,0.000421791,0.04217021,0.01613258,3905.548,492222.3
97.65401,0.016276,0.0426912,866.7209,495.2691,0,0,0,3204,0,0,0.000426912,0.0426912,0.000426912,0.0426821,0.016276,3931.38,495480.5
98.50401,0.0164152,0.04286486,872.1963,498.3979,0,0,0,3204,0,0,0.000428649,0.04286486,0.000428649,0.04285568,0.0164152,3956.216,498611.5
99.354,0.01656073,0.04336809,877.8407,501.6233,0,0,0,3204,0,0,0.000433681,0.04336809,0.000433681,0.04335869,0.01656073,3981.819,501840.8
100.204,0.01669782,0.04354138,883.1575,504.6614,0,0,0,3204,0,0,0.000435414,0.04354138,0.000435414,0.04353191,0.01669782,4005.935,504881.1
101.054,0.01683913,0.04384565,888.6415,507.7951,0,0,0,3204,0,0,0.000438457,0.04384565,0.000438457,0.04383604,0.01683913,4030.81,508017.8
101.904,0.01698466,0.04404442,894.4115,511.0923,0,0,0,3204,0,0,0.000440444,0.04404442,0.000440444,0.04403472,0.01698466,4056.982,511317.4
102.754,0.01712175,0.04423677,899.5186,514.0107,0,0,0,3204,0,0,0.000442368,0.04423678,0.000442368,0.04422699,0.01712175,4080.148,514238
103.604,0.01726517,0.0447432,905.0267,517.1581,0,0,0,3204,0,0,0.000447432,0.0447432,0.000447432,0.04473319,0.01726517,4105.132,517389.5
104.454,0.01740859,0.04501094,910.3868,520.2211,0,0,0,3204,0,0,0.000450109,0.04501094,0.000450109,0.04500081,0.01740859,4129.446,520455.2
105.304,0.0175499,0.04530547,915.7314,523.2751,0,0,0,3204,0,0,0.000453055,0.04530547,0.000453055,0.04529521,0.0175499,4153.688,523512.2
106.154,0.01768911,0.04558016,921.1777,526.3873,0,0,0,3204,0,0,0.000455802,0.04558016,0.000455802,0.04556977,0.01768911,4178.392,526627.2
107.004,0.01783463,0.04589425,926.694,529.5394,0,0,0,3204,0,0,0.000458943,0.04589425,0.000458943,0.04588372,0.01783463,4203.414,529782.5
107.854,0.01797805,0.04616671,932.1964,532.6837,0,0,0,3204,0,0,0.000461667,0.04616671,0.000461667,0.04615605,0.01797805,4228.372,532929.6
108.704,0.01811515,0.04646388,937.4048,535.6599,0,0,0,3204,0,0,0.000464639,0.04646388,0.000464639,0.04645309,0.01811515,4251.997,535908.8
109.554,0.01826067,0.04680457,942.9953,538.8545,0,0,0,3204,0,0,0.000468046,0.04680457,0.000468046,0.04679362,0.01826067,4277.355,539106.7
110.404,0.01840199,0.04705114,948.4654,541.9802,0,0,0,3204,0,0,0.000470511,0.04705114,0.000470511,0.04704007,0.01840199,4302.167,542235.2
111.254,0.01854119,0.04741739,953.6937,544.9678,0,0,0,3204,0,0,0.000474174,0.04741739,0.000474174,0.04740616,0.01854119,4325.882,545226.2
112.104,0.01868461,0.04781941,959.1193,548.0682,0,0,0,3204,0,0,0.000478194,0.04781941,0.000478194,0.04780798,0.01868461,4350.493,548330.3
112.954,0.01882381,0.04796594,964.4123,551.0928,0,0,0,3204,0,0,0.000479659,0.04796594,0.000479659,0.04795444,0.01882381,4374.501,551357.1
113.804,0.01896934,0.04829953,969.7483,554.1419,0,0,0,3204,0,0,0.000482995,0.04829954,0.000482995,0.04828787,0.01896934,4398.705,554409.6
114.654,0.01910643,0.048646,974.8485,557.0563,0,0,0,3204,0,0,0.00048646,0.048646,0.00048646,0.04863417,0.01910643,4421.839,557327.3
115.504,0.01924774,0.04888918,979.9691,559.9824,0,0,0,3204,0,0,0.000488892,0.04888918,0.000488892,0.04887723,0.01924774,4445.065,560256.1
116.354,0.01939327,0.04917061,985.2759,563.0148,0,0,0,3204,0,0,0.000491706,0.04917061,0.000491706,0.04915852,0.01939327,4469.137,563291.6
117.204,0.01953036,0.04940904,990.1631,565.8075,0,0,0,3204,0,0,0.00049409,0.04940904,0.00049409,0.04939684,0.01953036,4491.305,566087
118.054,0.01967589,0.04976462,995.4448,568.8256,0,0,0,3204,0,0,0.000497646,0.04976462,0.000497646,0.04975224,0.01967589,4515.262,569108.7
118.904,0.0198172,0.05007963,1000.566,571.7522,0,0,0,3204,0,0,0.000500796,0.05007963,0.000500796,0.0500671,0.0198172,4538.493,572038.6
119.754,0.0199564,0.05029809,1005.571,574.6121,0,0,0,3204,0,0,0.000502981,0.05029809,0.000502981,0.05028544,0.0199564,4561.194,574901.1
120.604,0.02009982,0.05057315,1010.753,577.5729,0,0,0,3204,0,0,0.000505731,0.05057315,0.000505732,0.05056036,0.02009982,4584.697,577865
121.454,0.02024324,0.05084704,1015.952,580.5438,0,0,0,3204,0,0,0.00050847,0.05084704,0.00050847,0.05083412,0.02024324,4608.279,580838.9
122.304,0.02038455,0.05102678,1021.073,583.4702,0,0,0,3204,0,0,0.000510268,0.05102678,0.000510268,0.05101377,0.02038455,4631.509,583767.9
123.154,0.02052375,0.05131804,1026.029,586.3022,0,0,0,3204,0,0,0.00051318,0.05131804,0.00051318,0.05130487,0.02052375,4653.989,586603.1
124.004,0.02066928,0.05169366,1031.331,589.3319,0,0,0,3204,0,0,0.000516937,0.05169366,0.000516937,0.0516803,0.02066928,4678.039,589636.6
124.854,0.02081059,0.05204803,1036.335,592.1912,0,0,0,3204,0,0,0.00052048,0.05204803,0.00052048,0.05203449,0.02081059,4700.735,592499.4
125.704,0.02094979,0.05220752,1041.24,594.9942,0,0,0,3204,0,0,0.000522075,0.05220752,0.000522075,0.0521939,0.02094979,4722.985,595304.9
126.554,0.02109321,0.05251977,1046.418,597.9529,0,0,0,3204,0,0,0.000525198,0.05251977,0.000525198,0.05250599,0.02109321,4746.471,598266.9
127.404,0.02123241,0.052776,1051.277,600.73,0,0,0,3204,0,0,0.00052776,0.052776,0.00052776,0.05276208,0.02123241,4768.515,601047
128.254,0.02137794,0.0530553,1056.308,603.6049,0,0,0,3204,0,0,0.000530553,0.0530553,0.000530553,0.05304123,0.02137794,4791.335,603925.1
129.104,0.02151503,0.05328301,1061.195,606.397,0,0,0,3204,0,0,0.00053283,0.05328301,0.00053283,0.05326882,0.02151503,4813.499,606720.1
129.954,0.02165634,0.05355598,1066.107,609.2042,0,0,0,3204,0,0,0.00053556,0.05355598,0.00053556,0.05354164,0.02165634,4835.782,609530.5
130.804,0.02180187,0.05391346,1071.246,612.1404,0,0,0,3204,0,0,0.000539135,0.05391346,0.000539135,0.05389893,0.02180187,4859.09,612470.5
131.654,0.02193896,0.05413196,1075.992,614.8525,0,0,0,3204,0,0,0.00054132,0.05413195,0.00054132,0.05411731,0.02193896,4880.617,615185.3
132.504,0.02208449,0.05439884,1081.033,617.733,0,0,0,3204,0,0,0.000543988,0.05439883,0.000543988,0.05438404,0.02208449,4903.482,618069
133.354,0.0222258,0.05463335,1086.016,620.5806,0,0,0,3204,0,0,0.000546334,0.05463335,0.000546334,0.05461843,0.0222258,4926.087,620919.7
134.204,0.022365,0.05490826,1090.804,623.3164,0,0,0,3204,0,0,0.000549083,0.05490826,0.000549083,0.05489319,0.022365,4947.803,623658.7
135.054,0.02250842,0.0551523,1095.676,626.1003,0,0,0,3204,0,0,0.000551523,0.0551523,0.000551523,0.0551371,0.02250842,4969.901,626445.6
135.904,0.02264973,0.05542903,1100.478,628.8444,0,0,0,3204,0,0,0.00055429,0.05542903,0.00055429,0.05541368,0.02264973,4991.683,629192.9
136.754,0.02279315,0.05571841,1105.251,631.5718,0,0,0,3204,0,0,0.000557184,0.05571841,0.000557184,0.0557029,0.02279315,5013.333,631923.7
137.604,0.02293235,0.05594666,1109.898,634.2276,0,0,0,3204,0,0,0.000559467,0.05594666,0.000559467,0.05593101,0.02293235,5034.415,634582.4
138.454,0.02307788,0.05621111,1114.868,637.0673,0,0,0,3204,0,0,0.000562111,0.05621111,0.000562111,0.05619531,0.02307788,5056.956,637425.4
139.304,0.02321919,0.05647811,1119.593,639.7673,0,0,0,3204,0,0,0.000564781,0.05647811,0.000564781,0.05646216,0.02321919,5078.388,640128.6
140.154,0.02335839,0.05670933,1124.107,642.347,0,0,0,3204,0,0,0.000567093,0.05670933,0.000567093,0.05669325,0.02335839,5098.865,642711.3
141.004,0.02350181,0.05698615,1129.032,645.1609,0,0,0,3204,0,0,0.000569862,0.05698615,0.000569862,0.05696992,0.02350181,5121.201,645528.5
141.854,0.02364101,0.05711942,1133.864,647.9225,0,0,0,3204,0,0,0.000571194,0.05711943,0.000571194,0.05710312,0.02364101,5143.123,648292.6
142.704,0.02378443,0.05738165,1138.692,650.6812,0,0,0,3204,0,0,0.000573817,0.05738165,0.000573817,0.05736519,0.02378443,5165.021,651054.5
143.554,0.02392364,0.05765873,1143.453,653.4016,0,0,0,3204,0,0,0.000576587,0.05765872,0.000576587,0.05764211,0.02392364,5186.615,653778.3
144.404,0.02406494,0.05796242,1148.134,656.0764,0,0,0,3204,0,0,0.000579624,0.05796242,0.000579624,0.05794563,0.02406494,5207.847,656456.7
145.254,0.02421047,0.05828524,1153.141,658.9379,0,0,0,3204,0,0,0.000582853,0.05828524,0.000582853,0.05826827,0.02421047,5230.562,659322
146.104,0.02434757,0.05854351,1157.608,661.4902,0,0,0,3204,0,0,0.000585435,0.05854351,0.000585435,0.05852638,0.02434757,5250.821,661877.4
146.954,0.02449099,0.05868593,1162.653,664.3734,0,0,0,3204,0,0,0.000586859,0.05868593,0.000586859,0.05866872,0.02449099,5273.708,664763.2
147.804,0.02463229,0.05896355,1167.421,667.0975,0,0,0,3204,0,0,0.000589636,0.05896356,0.000589636,0.05894618,0.02463229,5295.332,667490.9
148.654,0.02477361,0.05924395,1172.082,669.761,0,0,0,3204,0,0,0.00059244,0.05924395,0.00059244,0.05922641,0.02477361,5316.474,670157.8
149.504,0.02491492,0.0595207,1176.925,672.5289,0,0,0,3204,0,0,0.000595207,0.0595207,0.000595207,0.05950299,0.02491492,5338.445,672929.1
150.354,0.02505834,0.05973712,1181.692,675.2524,0,0,0,3204,0,0,0.000597371,0.05973712,0.000597371,0.05971928,0.02505834,5360.064,675655.8
151.204,0.02519965,0.05998132,1186.485,677.9915,0,0,0,3204,0,0,0.000599813,0.05998132,0.000599813,0.05996334,0.02519965,5381.806,678398.1
152.054,0.02533885,0.06027036,1191.18,680.6744,0,0,0,3204,0,0,0.000602704,0.06027037,0.000602704,0.06025221,0.02533885,5403.103,681084.6
152.904,0.02548649,0.06063886,1196.169,683.5251,0,0,0,3204,0,0,0.000606389,0.06063886,0.000606389,0.06062048,0.02548649,5425.731,683939.6
153.754,0.02562779,0.06079441,1201.043,686.3104,0,0,0,3204,0,0,0.000607944,0.06079441,0.000607944,0.06077594,0.02562779,5447.841,686727.7
154.604,0.02576489,0.06103677,1205.68,688.96,0,0,0,3204,0,0,0.000610368,0.06103677,0.000610368,0.06101815,0.02576489,5468.873,689380.5
155.454,0.02591042,0.06132844,1210.536,691.7349,0,0,0,3204,0,0,0.000613285,0.06132844,0.000613284,0.06130965,0.02591042,5490.9,692159.2
156.304,0.02604962,0.06152718,1215.316,694.4664,0,0,0,3204,0,0,0.000615272,0.06152718,0.000615272,0.06150826,0.02604962,5512.582,694893.6
157.154,0.02619304,0.06182032,1220.115,697.2083,0,0,0,3204,0,0,0.000618203,0.06182032,0.000618203,0.06180121,0.02619304,5534.347,697639.3
158.004,0.02633224,0.06208485,1224.668,699.8101,0,0,0,3204,0,0,0.000620849,0.06208485,0.000620849,0.06206559,0.02633224,5555,700244.6
158.854,0.02647355,0.06236984,1229.474,702.5568,0,0,0,3204,0,0,0.000623698,0.06236984,0.000623698,0.0623504,0.02647355,5576.802,702995
159.704,0.02661908,0.06256617,1234.356,705.346,0,0,0,3204,0,0,0.000625662,0.06256617,0.000625662,0.0625466,0.02661908,5598.943,705787.3
160.554,0.02675406,0.06289888,1238.726,707.8434,0,0,0,3204,0,0,0.000628989,0.06289888,0.000628989,0.06287911,0.02675406,5618.767,708288.6
161.404,0.02689959,0.06309785,1243.634,710.6483,0,0,0,3204,0,0,0.000630979,0.06309785,0.000630979,0.06307795,0.02689959,5641.032,711096.7
162.254,0.0270409,0.06336913,1248.39,713.3657,0,0,0,3204,0,0,0.000633691,0.06336913,0.000633691,0.06334906,0.0270409,5662.602,713817.7
163.104,0.02718221,0.0635917,1253.05,716.0287,0,0,0,3204,0,0,0.000635917,0.0635917,0.000635917,0.06357149,0.02718221,5683.741,716484
163.954,0.02732352,0.0639159,1257.972,718.8412,0,0,0,3204,0,0,0.000639159,0.06391589,0.000639159,0.06389548,0.02732352,5706.065,719300.6
164.804,0.02746694,0.06412523,1262.755,721.5742,0,0,0,3204,0,0,0.000641252,0.06412523,0.000641252,0.06410468,0.02746694,5727.76,722036.9
165.654,0.02761036,0.06435151,1267.591,724.3378,0,0,0,3204,0,0,0.000643515,0.06435151,0.000643515,0.06433082,0.02761036,5749.697,724803.9
166.504,0.02774745,0.06468546,1272.205,726.9741,0,0,0,3204,0,0,0.000646855,0.06468546,0.000646855,0.06466455,0.02774745,5770.624,727444.3
167.354,0.02789509,0.06501494,1277.236,729.8491,0,0,0,3204,0,0,0.000650149,0.06501494,0.000650149,0.06499382,0.02789509,5793.445,730323.6
168.204,0.02803429,0.06517878,1281.908,732.519,0,0,0,3204,0,0,0.000651788,0.06517878,0.000651788,0.06515755,0.02803429,5814.639,732996.5
169.054,0.02817349,0.06537396,1286.492,735.1381,0,0,0,3204,0,0,0.00065374,0.06537396,0.00065374,0.0653526,0.02817349,5835.428,735618.6
169.904,0.02831902,0.0657024,1291.393,737.9387,0,0,0,3204,0,0,0.000657024,0.0657024,0.000657024,0.06568083,0.02831902,5857.66,738423.6
170.754,0.02845822,0.06583733,1296.012,740.5784,0,0,0,3204,0,0,0.000658373,0.06583734,0.000658373,0.06581567,0.02845822,5878.613,741066
171.604,0.02860164,0.06611569,1300.788,743.3073,0,0,0,3204,0,0,0.000661157,0.06611569,0.000661157,0.06609384,0.02860164,5900.274,743798.7
172.454,0.02874084,0.06634787,1305.418,745.9534,0,0,0,3204,0,0,0.000663479,0.06634787,0.000663479,0.06632588,0.02874084,5921.279,746448.3
173.304,0.02888004,0.06652828,1310.054,748.6023,0,0,0,3204,0,0,0.000665283,0.06652828,0.000665283,0.06650615,0.02888004,5942.306,749100.3
174.154,0.02902768,0.06684983,1315.15,751.5143,0,0,0,3204,0,0,0.000668498,0.06684984,0.000668498,0.0668275,0.02902768,5965.421,752016.8
175.004,0.02916266,0.06719755,1319.534,754.0193,0,0,0,3204,0,0,0.000671976,0.06719755,0.000671975,0.06717498,0.02916266,5985.305,754526
175.854,0.02930819,0.0673411,1324.441,756.8232,0,0,0,3204,0,0,0.000673411,0.0673411,0.000673411,0.06731843,0.02930819,6007.562,757332.8
176.704,0.0294495,0.06757148,1329.234,759.5624,0,0,0,3204,0,0,0.000675715,0.06757148,0.000675715,0.06754866,0.0294495,6029.305,760075.6
177.554,0.02959081,0.06791149,1333.766,762.1519,0,0,0,3204,0,0,0.000679115,0.06791149,0.000679115,0.06788844,0.02959081,6049.861,762669.5
178.404,0.02973423,0.06810694,1338.615,764.9227,0,0,0,3204,0,0,0.000681069,0.06810694,0.000681069,0.06808376,0.02973423,6071.855,765443.7
179.254,0.02987554,0.06836191,1343.21,767.5488,0,0,0,3204,0,0,0.000683619,0.06836192,0.000683619,0.06833856,0.02987554,6092.701,768073.5
180.104,0.03001685,0.0686519,1347.867,770.2096,0,0,0,3204,0,0,0.000686519,0.0686519,0.000686519,0.06862835,0.03001685,6113.821,770738.4
180.954,0.03015605,0.06891083,1352.486,772.8494,0,0,0,3204,0,0,0.000689108,0.06891083,0.000689108,0.0688871,0.03015605,6134.775,773381.9
181.804,0.03030158,0.06910827,1357.321,775.6119,0,0,0,3204,0,0,0.000691083,0.06910827,0.000691083,0.0690844,0.03030158,6156.704,776147.9
182.654,0.030445,0.06932011,1362.016,778.2951,0,0,0,3204,0,0,0.000693201,0.06932011,0.000693201,0.0692961,0.030445,6178.003,778834.6
183.504,0.0305821,0.06959218,1366.396,780.7979,0,0,0,3204,0,0,0.000695922,0.06959218,0.000695922,0.06956797,0.0305821,6197.87,781341.2
184.354,0.03072762,0.06990822,1371.414,783.6651,0,0,0,3204,0,0,0.000699082,0.06990822,0.000699082,0.0698838,0.03072762,6220.629,784212.9
185.204,0.03086682,0.07015265,1376.08,786.3313,0,0,0,3204,0,0,0.000701527,0.07015265,0.000701527,0.07012805,0.03086682,6241.793,786883
186.054,0.03101025,0.07041533,1380.755,789.0031,0,0,0,3204,0,0,0.000704153,0.07041533,0.000704153,0.07039055,0.03101025,6263.002,789558.7
186.904,0.03114945,0.07062562,1385.555,791.7455,0,0,0,3204,0,0,0.000706256,0.07062563,0.000706256,0.0706007,0.03114945,6284.771,792304.7
187.754,0.03129075,0.0709114,1390.099,794.3425,0,0,0,3204,0,0,0.000709114,0.0709114,0.000709114,0.07088627,0.03129075,6305.385,794905.7
188.604,0.03143628,0.07125578,1395.063,797.1787,0,0,0,3204,0,0,0.000712558,0.07125578,0.000712558,0.07123041,0.03143628,6327.899,797746.8
189.454,0.03157127,0.07143599,1399.45,799.6858,0,0,0,3204,0,0,0.00071436,0.071436,0.00071436,0.07141049,0.03157127,6347.799,800257
190.304,0.03171468,0.07167879,1404.252,802.43,0,0,0,3204,0,0,0.000716788,0.07167879,0.000716788,0.07165311,0.03171468,6369.583,803005.2
191.154,0.03185811,0.07189665,1409,805.1429,0,0,0,3204,0,0,0.000718967,0.07189666,0.000718967,0.07187082,0.03185811,6391.118,805721.8
192.004,0.03199731,0.07221619,1413.48,807.7028,0,0,0,3204,0,0,0.000722162,0.07221619,0.000722162,0.07219013,0.03199731,6411.437,808286.1
192.854,0.03214073,0.07246914,1418.368,810.4959,0,0,0,3204,0,0,0.000724692,0.07246915,0.000724691,0.0724429,0.03214073,6433.609,811083.3
193.704,0.03228204,0.07266604,1423.023,813.1559,0,0,0,3204,0,0,0.00072666,0.07266604,0.00072666,0.07263965,0.03228204,6454.724,813746.8
194.554,0.03242546,0.07292387,1427.764,815.8649,0,0,0,3204,0,0,0.000729239,0.07292387,0.000729239,0.07289729,0.03242546,6476.228,816459.9
195.404,0.03256466,0.07326612,1432.523,818.5848,0,0,0,3204,0,0,0.000732661,0.07326613,0.000732661,0.0732393,0.03256466,6497.817,819184.5
196.254,0.0327123,0.07349313,1437.371,821.355,0,0,0,3204,0,0,0.000734931,0.07349313,0.000734931,0.07346614,0.0327123,6519.807,821958.7
197.104,0.0328515,0.0737397,1442.166,824.0946,0,0,0,3204,0,0,0.000737397,0.07373971,0.000737397,0.07371253,0.0328515,6541.553,824702.3
197.954,0.0329907,0.07394667,1446.654,826.6597,0,0,0,3204,0,0,0.000739467,0.07394667,0.000739467,0.07391934,0.0329907,6561.915,827271
198.804,0.03313623,0.07421024,1451.636,829.5066,0,0,0,3204,0,0,0.000742102,0.07421023,0.000742102,0.07418271,0.03313623,6584.513,830122.1
199.654,0.03327543,0.07452895,1456.309,832.1763,0,0,0,3204,0,0,0.000745289,0.07452895,0.00074529,0.07450119,0.03327543,6605.706,832796.6
200.504,0.03341674,0.07471296,1460.913,834.8075,0,0,0,3204,0,0,0.00074713,0.07471296,0.00074713,0.07468507,0.03341674,6626.591,835431.2
201.354,0.03355805,0.07499613,1465.628,837.5015,0,0,0,3204,0,0,0.000749961,0.07499613,0.000749961,0.07496802,0.03355805,6647.975,838129.5
202.204,0.03369725,0.07525028,1470.168,840.096,0,0,0,3204,0,0,0.000752503,0.07525028,0.000752503,0.07522199,0.03369725,6668.57,840728.2
203.054,0.03384489,0.07552323,1475.159,842.9481,0,0,0,3204,0,0,0.000755232,0.07552323,0.000755232,0.07549473,0.03384489,6691.21,843584.7
203.904,0.03397987,0.07571633,1479.504,845.431,0,0,0,3204,0,0,0.000757163,0.07571632,0.000757163,0.07568767,0.03397987,6710.919,846071.1
204.754,0.03412329,0.07600363,1484.327,848.1868,0,0,0,3204,0,0,0.000760036,0.07600363,0.000760036,0.07597476,0.03412329,6732.793,848831.4
205.604,0.03426671,0.07627917,1489.258,851.0043,0,0,0,3204,0,0,0.000762792,0.07627916,0.000762792,0.07625008,0.03426671,6755.159,851653.4
206.454,0.03440591,0.07650093,1493.327,853.3295,0,0,0,3204,0,0,0.000765009,0.07650093,0.000765009,0.07647168,0.03440591,6773.616,853982.3
207.304,0.03454933,0.07681063,1498.221,856.126,0,0,0,3204,0,0,0.000768106,0.07681064,0.000768106,0.07678115,0.03454933,6795.815,856783.6
208.154,0.03469064,0.07705396,1502.909,858.8054,0,0,0,3204,0,0,0.00077054,0.07705396,0.00077054,0.07702429,0.03469064,6817.083,859467.1
209.004,0.03483406,0.07728134,1507.715,861.5512,0,0,0,3204,0,0,0.000772813,0.07728134,0.000772813,0.07725149,0.03483406,6838.879,862217.1
209.854,0.03497326,0.07756686,1512.353,864.2016,0,0,0,3204,0,0,0.000775669,0.07756686,0.000775669,0.0775368,0.03497326,6859.917,864871.9
210.704,0.03511879,0.07786147,1517.152,866.9438,0,0,0,3204,0,0,0.000778615,0.07786147,0.000778615,0.07783117,0.03511879,6881.685,867618.8
211.554,0.0352601,0.07817411,1521.766,869.5806,0,0,0,3204,0,0,0.000781741,0.07817411,0.000781741,0.07814356,0.0352601,6902.615,870260.4
212.404,0.0353993,0.07838814,1526.183,872.1046,0,0,0,3204,0,0,0.000783881,0.07838814,0.000783881,0.07835743,0.0353993,6922.65,872788.2
213.254,0.03554483,0.07870751,1530.957,874.8324,0,0,0,3204,0,0,0.000787075,0.07870752,0.000787075,0.07867656,0.03554483,6944.303,875521
214.104,0.03568403,0.07893818,1535.554,877.4593,0,0,0,3204,0,0,0.000789382,0.07893819,0.000789382,0.07890705,0.03568403,6965.155,878151.9
214.954,0.03582534,0.0792186,1540.229,880.1307,0,0,0,3204,0,0,0.000792186,0.0792186,0.000792186,0.07918724,0.03582534,6986.361,880828
215.804,0.03596665,0.07936728,1545.025,882.8716,0,0,0,3204,0,0,0.000793673,0.07936728,0.000793673,0.0793358,0.03596665,7008.117,883572.3
216.654,0.03610586,0.07960063,1549.61,885.4911,0,0,0,3204,0,0,0.000796006,0.07960063,0.000796006,0.07956897,0.03610586,7028.911,886196
217.504,0.03625349,0.07996366,1554.644,888.3682,0,0,0,3204,0,0,0.000799637,0.07996366,0.000799637,0.07993171,0.03625349,7051.748,889078.5
218.354,0.03638847,0.08028249,1559.092,890.91,0,0,0,3204,0,0,0.000802825,0.08028249,0.000802825,0.08025028,0.03638847,7071.925,891625.2
219.204,0.0365319,0.08044199,1563.873,893.6415,0,0,0,3204,0,0,0.00080442,0.08044199,0.00080442,0.08040965,0.0365319,7093.607,894360.4
220.054,0.03667532,0.08069945,1568.872,896.4985,0,0,0,3204,0,0,0.000806994,0.08069944,0.000806994,0.0806669,0.03667532,7116.287,897222
220.904,0.03681452,0.08098941,1573.285,899.02,0,0,0,3204,0,0,0.000809894,0.08098941,0.000809894,0.08095663,0.03681452,7136.301,899748.1
221.754,0.03695793,0.08127227,1578.084,901.7622,0,0,0,3204,0,0,0.000812723,0.08127227,0.000812723,0.08123927,0.03695793,7158.068,902495.1
222.604,0.03709925,0.08150187,1582.765,904.4373,0,0,0,3204,0,0,0.000815019,0.08150187,0.000815019,0.08146868,0.03709925,7179.303,905174.5
223.454,0.03724056,0.08183885,1587.394,907.0825,0,0,0,3204,0,0,0.000818389,0.08183885,0.000818389,0.08180539,0.03724056,7200.3,907824.8
224.304,0.03738187,0.08193345,1592.081,909.7604,0,0,0,3204,0,0,0.000819335,0.08193345,0.000819335,0.0818999,0.03738187,7221.557,910505.8
225.154,0.0375274,0.0821978,1596.88,912.5026,0,0,0,3204,0,0,0.000821978,0.08219781,0.000821978,0.08216404,0.0375274,7243.325,913252.7
226.004,0.03766871,0.08249319,1601.608,915.2043,0,0,0,3204,0,0,0.000824932,0.08249319,0.000824932,0.08245919,0.03766871,7264.771,915959.3
226.854,0.0378058,0.08281532,1606.106,917.7751,0,0,0,3204,0,0,0.000828153,0.08281532,0.000828153,0.08278105,0.0378058,7285.177,918535.2
227.704,0.03795133,0.08313001,1611.076,920.615,0,0,0,3204,0,0,0.0008313,0.08313001,0.0008313,0.08309548,0.03795133,7307.72,921380.3
228.554,0.03809264,0.08334437,1615.809,923.3195,0,0,0,3204,0,0,0.000833444,0.08334438,0.000833444,0.08330966,0.03809264,7329.188,924089.1
229.404,0.03823184,0.0836156,1620.315,925.8942,0,0,0,3204,0,0,0.000836156,0.0836156,0.000836156,0.08358067,0.03823184,7349.625,926668.4
230.254,0.03837526,0.08384449,1625.1,928.6284,0,0,0,3204,0,0,0.000838445,0.0838445,0.000838445,0.08380937,0.03837526,7371.329,929407
231.104,0.03851446,0.08407769,1629.695,931.2545,0,0,0,3204,0,0,0.000840777,0.08407769,0.000840777,0.08404236,0.03851446,7392.174,932037.4
231.954,0.03866209,0.08439445,1634.429,933.9593,0,0,0,3204,0,0,0.000843945,0.08439445,0.000843945,0.08435886,0.03866209,7413.645,934747.5
232.804,0.03879708,0.08454152,1638.864,936.494,0,0,0,3204,0,0,0.000845415,0.08454152,0.000845415,0.08450581,0.03879708,7433.765,937285.7
233.654,0.0389405,0.08487117,1643.563,939.1789,0,0,0,3204,0,0,0.000848712,0.08487117,0.000848712,0.08483517,0.0389405,7455.077,939976
234.504,0.03908391,0.08511079,1648.377,941.9294,0,0,0,3204,0,0,0.000851108,0.08511078,0.000851108,0.08507458,0.03908391,7476.911,942731.2
235.354,0.03922312,0.08545762,1652.864,944.4938,0,0,0,3204,0,0,0.000854576,0.08545762,0.000854576,0.08542113,0.03922312,7497.267,945301
236.204,0.03936654,0.08566303,1657.778,947.3015,0,0,0,3204,0,0,0.00085663,0.08566304,0.00085663,0.08562636,0.03936654,7519.553,948112.9
237.054,0.03950785,0.08591953,1662.462,949.9784,0,0,0,3204,0,0,0.000859195,0.08591953,0.000859195,0.08588264,0.03950785,7540.802,950794.6
237.904,0.03964916,0.08614928,1667.191,952.6804,0,0,0,3204,0,0,0.000861493,0.08614928,0.000861493,0.08611219,0.03964916,7562.25,953501.1
238.754,0.03979047,0.08640043,1671.991,955.4233,0,0,0,3204,0,0,0.000864004,0.08640043,0.000864004,0.08636313,0.03979047,7584.023,956248.8
239.604,0.039936,0.08669387,1676.749,958.1421,0,0,0,3204,0,0,0.000866939,0.08669387,0.000866939,0.08665631,0.039936,7605.605,958972.8
240.454,0.04007731,0.08697383,1681.548,960.8848,0,0,0,3204,0,0,0.000869738,0.08697383,0.000869738,0.08693603,0.04007731,7627.375,961720.5
241.304,0.0402144,0.08721693,1686.036,963.4492,0,0,0,3204,0,0,0.000872169,0.08721694,0.000872169,0.08717892,0.0402144,7647.731,964289.4
242.154,0.04035993,0.08738912,1690.917,966.2382,0,0,0,3204,0,0,0.000873891,0.08738912,0.000873891,0.08735096,0.04035993,7669.87,967082.5
243.004,0.04050124,0.08771989,1695.567,968.8953,0,0,0,3204,0,0,0.000877199,0.08771989,0.000877199,0.08768144,0.04050124,7690.962,969745.2
243.854,0.04064255,0.08796447,1700.086,971.4778,0,0,0,3204,0,0,0.000879645,0.08796447,0.000879645,0.0879258,0.04064255,7711.461,972332.3
244.704,0.04078386,0.0881529,1704.828,974.1876,0,0,0,3204,0,0,0.000881529,0.08815291,0.000881529,0.08811408,0.04078386,7732.971,975046.3
245.554,0.04092306,0.08843277,1709.494,976.8536,0,0,0,3204,0,0,0.000884328,0.08843277,0.000884328,0.08839369,0.04092306,7754.134,977717.5
246.404,0.0410707,0.08879425,1714.251,979.5719,0,0,0,3204,0,0,0.000887943,0.08879425,0.000887943,0.08875486,0.0410707,7775.711,980441.7
247.254,0.04120568,0.08896122,1718.722,982.1268,0,0,0,3204,0,0,0.000889612,0.08896122,0.000889612,0.08892167,0.04120568,7795.992,983000.5
248.104,0.04134699,0.08926333,1723.524,984.8709,0,0,0,3204,0,0,0.000892633,0.08926333,0.000892633,0.08922351,0.04134699,7817.774,985750.1
248.954,0.04149252,0.08946796,1728.492,987.7099,0,0,0,3204,0,0,0.00089468,0.08946796,0.00089468,0.08942796,0.04149252,7840.31,988593.6
249.804,0.04163172,0.08980547,1732.995,990.2831,0,0,0,3204,0,0,0.000898055,0.08980547,0.000898055,0.08976517,0.04163172,7860.736,991172.4
250.654,0.04177514,0.09005637,1737.843,993.0529,0,0,0,3204,0,0,0.000900564,0.09005637,0.000900564,0.09001584,0.04177514,7882.722,993947.2
251.504,0.04191434,0.09033051,1742.497,995.7126,0,0,0,3204,0,0,0.000903305,0.09033051,0.000903305,0.09028974,0.04191434,7903.834,996612
252.354,0.04205776,0.09058601,1747.133,998.3618,0,0,0,3204,0,0,0.00090586,0.09058601,0.00090586,0.09054501,0.04205776,7924.863,999266.2
253.204,0.04219907,0.09083227,1751.911,1001.092,0,0,0,3204,0,0,0.000908323,0.09083227,0.000908323,0.09079105,0.04219907,7946.537,1002002
254.054,0.0423446,0.09105731,1756.66,1003.806,0,0,0,3204,0,0,0.000910573,0.09105731,0.000910573,0.09101588,0.0423446,7968.078,1004720
254.904,0.04248591,0.09132328,1761.269,1006.44,0,0,0,3204,0,0,0.000913233,0.09132329,0.000913233,0.09128161,0.04248591,7988.983,1007359
255.754,0.042623,0.09164222,1765.814,1009.037,0,0,0,3204,0,0,0.000916422,0.09164222,0.000916422,0.09160025,0.042623,8009.599,1009961
256.604,0.04276853,0.09194847,1770.663,1011.808,0,0,0,3204,0,0,0.000919485,0.09194847,0.000919485,0.09190623,0.04276853,8031.594,1012738
257.454,0.04290985,0.09226094,1775.387,1014.507,0,0,0,3204,0,0,0.000922609,0.09226094,0.000922609,0.09221841,0.04290985,8053.02,1015443
258.304,0.04304904,0.09247596,1780.13,1017.217,0,0,0,3204,0,0,0.00092476,0.09247597,0.00092476,0.09243323,0.04304904,8074.534,1018158
259.154,0.04319246,0.09271908,1784.879,1019.931,0,0,0,3204,0,0,0.000927191,0.09271908,0.000927191,0.09267612,0.04319246,8096.074,1020876
260.004,0.04333166,0.09300223,1789.507,1022.575,0,0,0,3204,0,0,0.000930022,0.09300223,0.000930022,0.09295901,0.04333166,8117.066,1023526
260.854,0.0434772,0.09328552,1794.366,1025.352,0,0,0,3204,0,0,0.000932855,0.09328552,0.000932855,0.09324204,0.0434772,8139.108,1026308
261.704,0.04361429,0.09361065,1798.772,1027.87,0,0,0,3204,0,0,0.000936107,0.09361065,0.000936107,0.09356687,0.04361429,8159.094,1028832
262.554,0.04375771,0.09378988,1803.423,1030.528,0,0,0,3204,0,0,0.000937899,0.09378988,0.000937899,0.09374593,0.04375771,8180.191,1031494
263.404,0.04390113,0.09409612,1808.294,1033.311,0,0,0,3204,0,0,0.000940961,0.09409612,0.000940961,0.09405188,0.04390113,8202.283,1034283
264.254,0.04403822,0.09435538,1812.619,1035.782,0,0,0,3204,0,0,0.000943554,0.09435538,0.000943554,0.0943109,0.04403822,8221.902,1036760
265.104,0.04418375,0.09465087,1817.314,1038.465,0,0,0,3204,0,0,0.000946509,0.09465087,0.000946509,0.09460611,0.04418375,8243.199,1039448
265.954,0.04432295,0.09489553,1821.957,1041.119,0,0,0,3204,0,0,0.000948955,0.09489553,0.000948955,0.09485053,0.04432295,8264.26,1042106
266.804,0.04446637,0.09518273,1826.687,1043.821,0,0,0,3204,0,0,0.000951827,0.09518273,0.000951827,0.09513746,0.04446637,8285.712,1044814
267.654,0.04460768,0.09549675,1831.263,1046.436,0,0,0,3204,0,0,0.000954968,0.09549674,0.000954968,0.09545118,0.04460768,8306.47,1047435
268.504,0.0447532,0.09578266,1836.133,1049.219,0,0,0,3204,0,0,0.000957827,0.09578266,0.000957827,0.09573681,0.0447532,8328.559,1050224
269.354,0.04489451,0.0960926,1840.82,1051.897,0,0,0,3204,0,0,0.000960926,0.0960926,0.000960926,0.09604646,0.04489451,8349.819,1052908
270.204,0.04503161,0.09631941,1845.261,1054.435,0,0,0,3204,0,0,0.000963194,0.09631941,0.000963194,0.09627306,0.04503161,8369.962,1055450
271.054,0.04517713,0.09661647,1850.223,1057.27,0,0,0,3204,0,0,0.000966165,0.09661647,0.000966165,0.09656983,0.04517713,8392.47,1058292
271.904,0.04531845,0.09687288,1854.896,1059.941,0,0,0,3204,0,0,0.000968729,0.09687288,0.000968729,0.09682599,0.04531845,8413.668,1060967
272.754,0.04545765,0.09713461,1859.287,1062.45,0,0,0,3204,0,0,0.000971346,0.09713461,0.000971346,0.09708746,0.04545765,8433.586,1063482
273.604,0.04560107,0.09740845,1863.994,1065.139,0,0,0,3204,0,0,0.000974085,0.09740845,0.000974085,0.09736104,0.04560107,8454.934,1066177
274.454,0.04574027,0.09766161,1868.476,1067.701,0,0,0,3204,0,0,0.000976616,0.09766161,0.000976616,0.09761395,0.04574027,8475.266,1068743
275.304,0.0458858,0.09794272,1873.087,1070.335,0,0,0,3204,0,0,0.000979427,0.09794272,0.000979427,0.09789479,0.0458858,8496.18,1071384
276.154,0.04602289,0.09821746,1877.568,1072.896,0,0,0,3204,0,0,0.000982175,0.09821746,0.000982175,0.09816926,0.04602289,8516.504,1073950
277.004,0.0461642,0.09852728,1882.131,1075.503,0,0,0,3204,0,0,0.000985273,0.09852728,0.000985273,0.09847877,0.0461642,8537.203,1076563
277.854,0.04630973,0.0987274,1886.926,1078.244,0,0,0,3204,0,0,0.000987274,0.09872741,0.000987274,0.0986787,0.04630973,8558.953,1079308
278.704,0.04644682,0.09907898,1891.26,1080.72,0,0,0,3204,0,0,0.00099079,0.09907898,0.00099079,0.09902992,0.04644682,8578.611,1081791
279.554,0.04659235,0.09936534,1896.158,1083.519,0,0,0,3204,0,0,0.000993653,0.09936534,0.000993653,0.09931601,0.04659235,8600.83,1084596
280.404,0.04673366,0.09960123,1900.753,1086.145,0,0,0,3204,0,0,0.000996012,0.09960123,0.000996012,0.09955167,0.04673366,8621.673,1087227
281.254,0.04687497,0.09994108,1905.342,1088.767,0,0,0,3204,0,0,0.000999411,0.09994108,0.000999411,0.09989117,0.04687497,8642.485,1089855
282.104,0.04701628,0.1001489,1910.129,1091.502,0,0,0,3204,0,0,0.001001489,0.1001489,0.001001489,0.1000988,0.04701628,8664.199,1092595
282.954,0.04715759,0.1004738,1914.624,1094.071,0,0,0,3204,0,0,0.001004738,0.1004738,0.001004738,0.1004234,0.04715759,8684.591,1095170
283.804,0.04730101,0.1007464,1919.317,1096.753,0,0,0,3204,0,0,0.001007464,0.1007464,0.001007464,0.1006957,0.04730101,8705.878,1097858
284.654,0.04744021,0.1009266,1923.782,1099.304,0,0,0,3204,0,0,0.001009266,0.1009266,0.001009266,0.1008757,0.04744021,8726.131,1100414
285.504,0.04758574,0.1013288,1928.457,1101.975,0,0,0,3204,0,0,0.001013288,0.1013288,0.001013288,0.1012775,0.04758574,8747.335,1103092
286.354,0.04772705,0.1015003,1932.995,1104.569,0,0,0,3204,0,0,0.001015003,0.1015003,0.001015003,0.1014489,0.04772705,8767.919,1105690
287.204,0.04786625,0.101816,1937.461,1107.12,0,0,0,3204,0,0,0.00101816,0.101816,0.00101816,0.1017642,0.04786625,8788.174,1108248
288.054,0.04800967,0.1020937,1942.169,1109.811,0,0,0,3204,0,0,0.001020937,0.1020937,0.001020937,0.1020416,0.04800967,8809.53,1110944
288.904,0.04814887,0.1024093,1946.707,1112.404,0,0,0,3204,0,0,0.001024093,0.1024093,0.001024093,0.1023569,0.04814887,8830.116,1113543
289.754,0.0482944,0.1027686,1951.436,1115.106,0,0,0,3204,0,0,0.001027686,0.1027686,0.001027686,0.1027158,0.0482944,8851.565,1116252
290.604,0.04843149,0.1029512,1955.854,1117.631,0,0,0,3204,0,0,0.001029512,0.1029512,0.001029512,0.1028983,0.04843149,8871.606,1118782
291.454,0.0485728,0.1031997,1960.382,1120.219,0,0,0,3204,0,0,0.001031997,0.1031997,0.001031997,0.1031465,0.0485728,8892.146,1121375
292.304,0.04871833,0.1036545,1965.297,1123.027,0,0,0,3204,0,0,0.001036545,0.1036545,0.001036545,0.1036008,0.04871833,8914.438,1124191
293.154,0.04885542,0.1039142,1969.559,1125.462,0,0,0,3204,0,0,0.001039141,0.1039141,0.001039142,0.1038602,0.04885542,8933.77,1126632
294.004,0.04899884,0.104142,1974.277,1128.158,0,0,0,3204,0,0,0.00104142,0.104142,0.00104142,0.1040878,0.04899884,8955.17,1129333
294.854,0.04914015,0.1044236,1978.871,1130.783,0,0,0,3204,0,0,0.001044236,0.1044236,0.001044236,0.1043691,0.04914015,8976.007,1131964
295.704,0.04928146,0.1047343,1983.269,1133.297,0,0,0,3204,0,0,0.001047343,0.1047343,0.001047343,0.1046795,0.04928146,8995.957,1134483
296.554,0.04942489,0.1050162,1987.929,1135.96,0,0,0,3204,0,0,0.001050162,0.1050162,0.001050162,0.1049611,0.04942489,9017.096,1137152
297.404,0.04956619,0.1053635,1992.513,1138.579,0,0,0,3204,0,0,0.001053635,0.1053635,0.001053635,0.105308,0.04956619,9037.886,1139778
298.254,0.04970961,0.1057058,1997.075,1141.186,0,0,0,3204,0,0,0.001057058,0.1057058,0.001057058,0.1056499,0.04970961,9058.583,1142392
298.824,0.04980241,0.1058605,2000.008,1142.862,0,0,0,3204,0,0,0.001058605,0.1058605,0.001058605,0.1058045,0.04980241,9071.884,1144071